Folder: JSONGrapher/data

Note: data/7000_CO2.json
{
    "compoundName": "CO2,
    "compoundFormula": "CO2",
    "time": [0.0, 1.0, 2.0, 10.0, 50.0],
    "timeUnit": "s",
    "massFraction": [0.0, 0.01, 0.1, 0.2, 0.25],
    "massFractionUnit": "-",
}

Note: data/7000_O2.json
{
    "compoundName": "O2,
    "compoundFormula": "O2",
    "time": [0.0, 1.0, 2.0, 10.0, 50.0],
    "timeUnit": "s",
    "massFraction": [0.2, 0.19, 0.15, 0.1, 0.09],
    "massFractionUnit": "-",
}

Note: data/8249.json
{
    "data": [
        {
            "uid": "babced",
            "fill": "tonexty",
            "mode": "none",
            "name": "Col2",
            "type": "scatter",
            "x": [
                "2005-01-01",
                "2006-01-01",
                "2007-01-01",
                "2008-01-01",
                "2009-01-01",
                "2010-01-01",
                "2011-01-01",
                "2012-01-01",
                "2013-01-01",
                "2014-01-01",
                "2015-01-01",
                "2016-01-01"
            ],
            "y": [
                "64780617",
                "85507314",
                "121892559",
                "172338726",
                "238027855",
                "206956723",
                "346004403",
                "697089489",
                "672985183",
                "968882453",
                "863105652",
                "1068513050"
            ],
            "fillcolor": "rgb(110, 224, 102)"
        }
    ],
    "layout": {
        "title": "Total Number of Websites Modified",
        "width": 800,
        "xaxis": {
            "type": "date",
            "range": [
                946702800000,
                1451624400000
            ],
            "title": "Source: <a href=\"http://www.scribblrs.com/\">Scribblrs</a><br>Source: <a href=\"http://www.internetlivestats.com/total-number-of-websites/\">Internet Live Stats</a>",
            "showgrid": false,
            "autorange": true,
            "tickformat": "%Y"
        },
        "yaxis": {
            "type": "linear",
            "range": [
                0,
                1124750578.9473684
            ],
            "title": "",
            "autorange": true
        },
        "height": 500,
        "autosize": false
    },
    "frames": []
}

Note: data/8259_edited_both_series.json
{
    "title": "Computer Sales",
    "data": [
        {
            "uid": "45c0a4",
            "line": {
                "shape": "spline",
                "width": 3
            },
            "name": "Series1Name",
            "type": "scatter",
            "x": [
                "2007",
                "2008",
                "2009",
                "2010",
                "2011",
                "2012",
                "2013",
                "2014",
                "2015"
            ],
            "y": [
                "0",
                "45560506.663365364",
                "91145081.21192169",
                "232447635.15836716",
                "580348915.5698586",
                "1182888421.2842617",
                "1928559640.2194986",
                "2578825762.2643065",
                "3022276546.8773637"
            ]
        },
        {
            "uid": "fc8c63",
            "line": {
                "shape": "spline",
                "width": 3
            },
            "name": "Series2Name",
            "type": "scatter",
            "x": [
                "2007",
                "2008",
                "2009",
                "2010",
                "2011",
                "2012",
                "2013",
                "2014",
                "2015"
            ],
            "y": [
                "970368995.0626459",
                "1095570133.817442",
                "1236607941.026805",
                "1346092750.7529802",
                "1471269821.6225882",
                "1517022871.3674688",
                "1546770777.4614573",
                "1512907263.0000963",
                "1463183012.1989794"
            ]
        }
    ],
    "layout": {
        "title": "Chart Title",
        "xaxis": {
            "title": "X label",
            "showgrid": false,
            "autorange": true
        },
        "yaxis": {
            "title": "Y Label",
            "autorange": true,
            "gridcolor": "rgb(208, 208, 208)",
            "ticksuffix": "  "
        },
        "legend": {},
        "autosize": true,
        "plot_bgcolor": "rgb(242, 242, 242)",
        "paper_bgcolor": "rgb(242, 242, 242)"
    }
}

Note: data/8259_edited_Series1_another.json
{
    "title": "Computer Sales",
    "data": [
        {
            "uid": "45c0a4",
            "line": {
                "shape": "spline",
                "width": 3
            },
            "name": "Series1Name",
            "type": "scatter",
            "x": [
                "2007",
                "2008",
                "2009",
                "2010",
                "2011",
                "2012",
                "2013",
                "2014",
                "2015"
            ],
            "y": [
                "0",
                "45560506.663365364",
                "91145081.21192169",
                "232447635.15836716",
                "580348915.5698586",
                "1182888421.2842617",
                "1928559640.2194986",
                "2578825762.2643065",
                "3022276546.8773637"
            ]
        }
    ],
    "layout": {
        "title": "Chart Title",
        "xaxis": {
            "title": "X label different",
            "showgrid": false,
            "autorange": true
        },
        "yaxis": {
            "title": "Y Label",
            "autorange": true,
            "gridcolor": "rgb(208, 208, 208)",
            "ticksuffix": "  "
        },
        "legend": {},
        "autosize": true,
        "plot_bgcolor": "rgb(242, 242, 242)",
        "paper_bgcolor": "rgb(242, 242, 242)"
    }
}

Note: data/8259_edited_Series2.json
{
    "title": "Computer Sales",                             
    "data": [
        {
            "uid": "fc8c63",
            "line": {
                "shape": "spline",
                "width": 3
            },
            "name": "Series2Name",
            "type": "scatter",
            "x": [
                "2007",
                "2008",
                "2009",
                "2010",
                "2011",
                "2012",
                "2013",
                "2014",
                "2015"
            ],
            "y": [
                "970368995.0626459",
                "1095570133.817442",
                "1236607941.026805",
                "1346092750.7529802",
                "1471269821.6225882",
                "1517022871.3674688",
                "1546770777.4614573",
                "1512907263.0000963",
                "1463183012.1989794"
            ]
        }
    ],
    "layout": {
        "title": "Chart Title",
        "xaxis": {
            "title": "X label",
            "showgrid": false,
            "autorange": true
        },
        "yaxis": {
            "title": "Y Label",
            "autorange": true,
            "gridcolor": "rgb(208, 208, 208)",
            "ticksuffix": "  "
        },
        "legend": {},
        "autosize": true,
        "plot_bgcolor": "rgb(242, 242, 242)",
        "paper_bgcolor": "rgb(242, 242, 242)"
    }
}

Note: data/data00.json
{
    "format": "array_data",
    "name": "data00_name",
    "xlabel": "Pressure (Pa)",
    "ylabel": "qrate (mol/kg)",
    "x": [100000.0,110000.0,120000.0,130000.0],
    "y": [0.01,0.02,0.03,0.04]
}

File: amino_silane_silica_exp_363.csv
comments: Amino silane silica CO2 adsorption experimental (363  K) data published in https://doi.org/10.1016/j.cej.2020.127121,
DataType: CO2_Adsorption_Isotherm,
Chart_label: CO2 Adsorption,
x_label: CO2 Pressure (kPa),
y_label: CO2 Adsorbed (mol/kg),
seriesnames: CO2 Adsorption on amino_silane_Silica  (363 K exp),,
x_values,y_values
0.051246,0.0955273
0.097324,0.164434
0.14678,0.22538
0.21276,0.291324
0.30539,0.36312
0.43305,0.4361
0.60726,0.506318
0.81824,0.565201
1.1018,0.619403
1.874,0.702937
2.6998,0.751402
3.7635,0.791033
4.9321,0.82153
6.0547,0.844299
7.5831,0.869479
9.127,0.890671
10.685,0.909174
15.89,0.958113
21.06,0.994771
26.156,1.02367
31.224,1.04742
37.606,1.07217
42.704,1.0888
47.736,1.10307
52.745,1.11557
57.761,1.12667
62.791,1.13661
67.811,1.14553
72.835,1.15359
77.858,1.16091
82.883,1.16759
87.902,1.1737
92.914,1.17931
97.924,1.18449
12.95,1.18929

File: amino_silane_silica_exp_383.csv
comments: Amino silane silica CO2 adsorption modelled (383 K) data published in https://doi.org/10.1016/j.cej.2020.127121,
DataType: CO2_Adsorption_Isotherm,
Chart_label: CO2 Adsorption,
x_label: CO2 Pressure (kPa),
y_label: CO2 Adsorbed (mol/kg),
seriesnames: CO2 Adsorption on amino_silane_Silica  (383 K exp),
x_values,y_values
0.63435,0.0191139
1.314,0.03474286
2.5232,0.0665846
3.8894,0.109906
4.9954,0.144206
6.3843,0.187469
7.5387,0.218777
8.9797,0.255284
10.534,0.289892
15.473,0.373283
20.69,0.438985
25.883,0.488861
31.019,0.530643
37.424,0.570553
42.545,0.601277
47.615,0.626917
52.676,0.648589
57.691,0.67026
62.742,0.69055
67.756,0.709011
72.783,0.726803
77.822,0.742142
82.838,0.759979
87.874,0.774249
92.875,0.788696
97.902,0.802475
102.94,0.813311

File: amino_silane_silica_mod_343.csv
comments: Amino silane silica CO2 adsorption, modelled, (343),
DataType: CO2_Adsorption_Isotherm,
Chart_label: CO2 Adsorption,
x_label: CO2 Pressure (kPa),
y_label: CO2 Adsorbed (mol/kg),
seriesnames: CO2 Adsorption on amino_silane_Silica,
x_values,y_values
0.051246,0.0726223
0.097324,0.145316
0.14678,0.21702
0.21276,0.285923
0.30539,0.354559
0.43305,0.419502
0.60726,0.477623
0.81824,0.532694
1.1018,0.581032
1.874,0.663304
2.6998,0.718642
3.7635,0.76912
4.9321,0.806488
6.0547,0.834269
7.5831,0.860846
9.127,0.884078
10.685,0.902718
15.89,0.948068
21.06,0.980085
26.156,1.00541
31.224,1.02726
37.606,1.04978
42.704,1.06588
47.736,1.0801
52.745,1.09321
57.761,1.10664
62.791,1.11957
67.811,1.12996
72.835,1.14177
77.858,1.15181
82.883,1.16099
87.902,1.16884
92.914,1.17816
97.924,1.18762
102.95,1.19609

File: amino_silane_silica_mod_363.csv
comments: Amino silane silica CO2 adsorption modelled (363 K) data published in https://doi.org/10.1016/j.cej.2020.127121,
DataType: CO2_Adsorption_Isotherm,
Chart_label: CO2 Adsorption,
x_label: CO2 Pressure (kPa),
y_label: CO2 Adsorbed (mol/kg),
seriesnames: CO2 Adsorption on amino_silane_Silica  (363 K mod),,
x_values,y_values
0.23169,0.0527786
0.47098,0.100903
0.7058,0.142891
0.95804,0.183164
1.2498,0.224539
1.896,0.30071
2.5937,0.365481
3.6069,0.437994
4.7503,0.499792
5.8888,0.547614
6.9879,0.584965
8.4638,0.625684
9.6357,0.652476
11.11,0.681139
15.715,0.747751
20.862,0.799265
26.009,0.838003
31.131,0.868936
37.51,0.900544
42.636,0.922026
47.662,0.94056
52.707,0.957163
57.746,0.972109
62.777,0.985668
67.8,0.998051
72.829,1.00946
77.843,1.01996
82.865,1.02973
87.904,1.03886
92.907,1.04732
97.931,1.05528
102.95,1.06275

File: amino_silane_silica_mod_383.csv
comments: Amino silane silica CO2 adsorption modeller (383  K) data published in https://doi.org/10.1016/j.cej.2020.127121,
DataType: CO2_Adsorption_Isotherm,
Chart_label: CO2 Adsorption,
x_label: CO2 Pressure (kPa),
y_label: CO2 Adsorbed (mol/kg),
seriesnames: CO2 Adsorption on amino_silane_Silica  (343 K mod),
x_values,y_values
0.63435,0.0224144
1.314,0.0452727
2.5232,0.08325893
3.8894,0.122518
4.9954,0.151812
6.3843,0.185836
7.5387,0.21204
8.9797,0.242419
10.534,0.272625
15.473,0.354431
20.69,0.423398
25.883,0.479566
31.019,0.526206
37.424,0.575188
42.545,0.60876
47.615,0.63817
52.676,0.664431
57.691,0.687925
62.742,0.709447
67.756,0.729003
72.783,0.747055
77.822,0.7637932
82.838,0.779274
87.874,0.793772
92.875,0.807248
97.902,0.819968
102.94,0.83197

File: pei_carbon_exp_343.csv
comments: Polyethyleneimine on multiwalled carbon nanotubes (343 K) published in https://doi.org/10.3389/fclim.2021.733499,
DataType: CO2_Adsorption_Isotherm,
Chart_label: CO2 Adsorption,
x_label: CO2 Pressure (kPa),
y_label: CO2 Adsorbed (mol/kg),
seriesnames: CO2 Adsorption on polyethyleneimine on multiwalled carbon nanotubes (343 K exp),
x_values,y_values
0.078185,0.0372895
0.38982,0.0891614
0.80215,0.130908
1.283,0.170715
2.3274,0.223695
3.4561,0.26422
4.5852,0.293539
6.0855,0.322725
7.6631,0.345895
9.2036,0.364463
10.736,0.379669
16.038,0.410254
21.656,0.43078
26.671,0.444897
31.676,0.457557
38.027,0.469686
43.077,0.476598
47.918,0.48458
52.968,0.490644
57.923,0.496887
62.934,0.502818
67.902,0.508615
72.9,0.514367
77.921,0.519406
82.912,0.524445
87.953,0.530509
92.928,0.535415
97.917,0.540052

File: pei_carbon_exp_363.csv
comments: Polyethyleneimine on multiwalled carbon nanotubes (363 K) published in https://doi.org/10.3389/fclim.2021.733499
DataType: CO2_Adsorption_Isotherm
Chart_label: CO2 Adsorption
x_label: CO2 Pressure (kPa)
y_label: CO2 Adsorbed (mol/kg)
seriesnames: CO2 Adsorption on polyethyleneimine on multiwalled carbon nanotubes (363 K mod)
x_values,y_values
0.036322,0.0115912
0.47554,0.05327836
1.1211,0.080301
2.4771,0.125557
3.6188,0.155438
5.1138,0.186175
6.6304,0.214527
8.1844,0.237309
9.6895,0.258802
11.2,0.279707
15.954,0.323188
21.535,0.364186
26.548,0.391771
31.654,0.415529
37.98,0.440951
43.006,0.460723
47.964,0.475126
52.915,0.490109
57.925,0.503398
62.916,0.516195
67.945,0.527834
72.938,0.538804
77.907,0.548658
82.904,0.558246
87.924,0.567431
92.925,0.576394
97.929,0.58451